"success","trial_type","trial_index","time_elapsed","internal_node_id","view_history","rt","trialid","responses"
"true","fullscreen","0","49","0.0-0.0","","","",""
"","instructions","1","310","0.0-1.0","[{""page_index"":0,""viewing_time"":258}]","258","Screen_WM",""
"","survey-multi-choice1","2","766","0.0-2.0","","452","survey_aislamiento_social_y_redes_sociales_1","{""Q0"":""Si""}"
"","survey-multi-choice1","3","1260","0.0-3.0","","489","survey_aislamiento_social_y_redes_sociales_2","{""Q0"":""No""}"
"","survey-text-number","4","1551","0.0-4.0","","276","survey_aislamiento_social_y_redes_sociales_3","{""Q0"":""0""}"
"","survey-text-number","5","1841","0.0-5.0","","286","survey_aislamiento_social_y_redes_sociales_4","{""Q0"":""1""}"
"","survey-text-number","6","2126","0.0-6.0","","279","survey_aislamiento_social_y_redes_sociales_5","{""Q0"":""2""}"
"","survey-text-number","7","2407","0.0-7.0","","275","survey_aislamiento_social_y_redes_sociales_6","{""Q0"":""3""}"
"","survey-text-number","8","2686","0.0-8.0","","273","survey_aislamiento_social_y_redes_sociales_7","{""Q0"":""4""}"
"","survey-text-number","9","2974","0.0-9.0","","284","survey_aislamiento_social_y_redes_sociales_8","{""Q0"":""5""}"
"","survey-text-number","10","3263","0.0-10.0","","281","survey_aislamiento_social_y_redes_sociales_9","{""Q0"":""6""}"
"","survey-text-number","11","3562","0.0-11.0","","292","survey_aislamiento_social_y_redes_sociales_10","{""Q0"":""7""}"
"","survey-text-number","12","3855","0.0-12.0","","287","survey_aislamiento_social_y_redes_sociales_11","{""Q0"":""8""}"
"","survey-text-number","13","4138","0.0-13.0","","277","survey_aislamiento_social_y_redes_sociales_12","{""Q0"":""9""}"
"","survey-multi-choice1","14","4622","0.0-14.0","","471","survey_aislamiento_social_y_redes_sociales_13","{""Q0"":""Facebook""}"
"","survey-multi-choice1","15","5100","0.0-16.0-0.0","","472","survey_aislamiento_social_y_redes_sociales_14","{""Q0"":""Poco""}"
"","instructions","16","5328","0.0-17.0","[{""page_index"":0,""viewing_time"":227}]","227","Instructions_10_survey_aislamiento_social_y_redes_sociales",""
"","survey-multi-choice1","17","5806","0.0-18.0","","474","survey_aislamiento_social_y_redes_sociales_15","{""Q0"":""A veces""}"
"","survey-multi-choice1","18","6294","0.0-19.0","","482","survey_aislamiento_social_y_redes_sociales_16","{""Q0"":""Siempre""}"
"","survey-multi-choice1","19","6819","0.0-20.0","","518","survey_aislamiento_social_y_redes_sociales_17","{""Q0"":""Nunca""}"
"","survey-multi-choice1","20","7318","0.0-21.0","","495","survey_aislamiento_social_y_redes_sociales_18","{""Q0"":""Raramente""}"
"","survey-multi-choice1","21","7808","0.0-22.0","","481","survey_aislamiento_social_y_redes_sociales_19","{""Q0"":""A veces""}"
"","survey-multi-choice1","22","8296","0.0-23.0","","482","survey_aislamiento_social_y_redes_sociales_20","{""Q0"":""Siempre""}"
"","survey-multi-choice1","23","8783","0.0-24.0","","483","survey_aislamiento_social_y_redes_sociales_21","{""Q0"":""Nunca""}"
"","survey-multi-choice1","24","9276","0.0-25.0","","489","survey_aislamiento_social_y_redes_sociales_22","{""Q0"":""Raramente""}"
"","instructions","25","9500","0.0-26.0","[{""page_index"":0,""viewing_time"":223}]","224","Instructions_11_survey_aislamiento_social_y_redes_sociales",""
"","survey-multi-choice1","26","10001","0.0-27.0","","497","survey_aislamiento_social_y_redes_sociales_23","{""Q0"":""Si""}"
"","survey-multi-choice1","27","10492","0.0-28.0","","489","survey_aislamiento_social_y_redes_sociales_24","{""Q0"":""No""}"
"","survey-multi-choice1","28","11018","0.0-29.0","","520","survey_aislamiento_social_y_redes_sociales_25","{""Q0"":""Mas o menos""}"
"","survey-multi-choice1","29","11508","0.0-30.0","","489","survey_aislamiento_social_y_redes_sociales_26","{""Q0"":""Si""}"
"","survey-multi-choice1","30","11995","0.0-31.0","","483","survey_aislamiento_social_y_redes_sociales_27","{""Q0"":""No""}"
"","survey-multi-choice1","31","12491","0.0-32.0","","491","survey_aislamiento_social_y_redes_sociales_28","{""Q0"":""Mas o menos""}"
"","survey-multi-choice1","32","12981","0.0-33.0","","486","survey_aislamiento_social_y_redes_sociales_29","{""Q0"":""Si""}"
"","survey-multi-choice1","33","13454","0.0-34.0","","468","survey_aislamiento_social_y_redes_sociales_30","{""Q0"":""No""}"
"","survey-multi-choice1","34","13942","0.0-35.0","","480","survey_aislamiento_social_y_redes_sociales_31","{""Q0"":""Mas o menos""}"
"","survey-multi-choice1","35","14430","0.0-36.0","","482","survey_aislamiento_social_y_redes_sociales_32","{""Q0"":""Si""}"
"","survey-multi-choice1","36","14924","0.0-37.0","","490","survey_aislamiento_social_y_redes_sociales_33","{""Q0"":""No""}"
"","instructions","37","15152","0.0-38.0","[{""page_index"":0,""viewing_time"":225}]","226","Instructions_12_survey_aislamiento_social_y_redes_sociales",""
"","survey-multi-choice1","38","15676","0.0-39.0","","517","survey_aislamiento_social_y_redes_sociales_35","{""Q0"":""1""}"
"","survey-multi-choice1","39","16188","0.0-40.0","","504","survey_aislamiento_social_y_redes_sociales_36","{""Q0"":""<br>Algunas veces<br>al mes""}"
"","survey-multi-choice1","40","16691","0.0-41.0","","494","survey_aislamiento_social_y_redes_sociales_37","{""Q0"":""3 o 4""}"
"","survey-multi-choice1","41","17193","0.0-42.0","","494","survey_aislamiento_social_y_redes_sociales_38","{""Q0"":""5 a 8""}"
"","survey-multi-choice1","42","17702","0.0-43.0","","504","survey_aislamiento_social_y_redes_sociales_39","{""Q0"":""Siempre""}"
"","survey-multi-choice1","43","18211","0.0-44.0","","506","survey_aislamiento_social_y_redes_sociales_40","{""Q0"":""Nunca""}"
"","instructions","44","18442","0.0-45.0","[{""page_index"":0,""viewing_time"":226}]","227","Instructions_13_survey_aislamiento_social_y_redes_sociales",""
"","survey-multi-choice1","45","18933","0.0-46.0","","483","survey_aislamiento_social_y_redes_sociales_41","{""Q0"":""1""}"
"","survey-multi-choice1","46","19448","0.0-47.0","","508","survey_aislamiento_social_y_redes_sociales_42","{""Q0"":""<br>Algunas veces<br>al mes""}"
"","survey-multi-choice1","47","19940","0.0-48.0","","491","survey_aislamiento_social_y_redes_sociales_43","{""Q0"":""3 o 4""}"
"","survey-multi-choice1","48","20445","0.0-49.0","","499","survey_aislamiento_social_y_redes_sociales_44","{""Q0"":""5 a 8""}"
"","survey-multi-choice1","49","20942","0.0-50.0","","490","survey_aislamiento_social_y_redes_sociales_45","{""Q0"":""Siempre""}"
"","survey-multi-choice1","50","21431","0.0-51.0","","484","survey_aislamiento_social_y_redes_sociales_46","{""Q0"":""Nunca""}"
